[HEADER]
Format	J&M ASCII Table
Comment	MF.M11.01_HPX1_dye_24mm
Date	18/02/2022 13:02:37
Order	XYY
TechType	UV
NumPoints	256
FirstX	303.56
LastX	1144.49
XType	nm
YType	Count
ZType	Idx
NumSubFile	1
Matrix	Z vs X
[LOGIN]
Name=JM
[INSTRUMENT]
Name=TIDAS S 400 VIS/NI
Detector=MMS - ASPEN 97,5 kHz
Diodearray=256 Pixel
Serial#=39059
Calibrated=2016-03-14
Range=303.56-1144.49 [nm] (F0)

SWVersion=v3.22.6 (build 0)
[CONFIG]
ChannelName=Dark
ChannelType=RawData
[PARAMETER]
It=155.00
Aver=15
Norm=0
Range=303.6-1144.5 nm
Scan=Single
[TRIGGER]
Sweep=0
Scan=0
[DIO]
DigOut=0x0000
DigIn=0x0000
[DATA]
	0
303.56	174.133331
306.86	169.733337
310.16	168.066666
313.46	169.46666
316.76	170.333328
320.06	171.666672
323.36	171.266663
326.66	173.066666
329.97	170.399994
333.27	172.800003
336.58	173.46666
339.89	173.800003
343.19	173.066666
346.5	174.600006
349.81	174.46666
353.12	174.800003
356.43	173.333328
359.75	175.866669
363.06	173.866669
366.37	175.266663
369.69	176.333328
373	175.666672
376.32	174.933334
379.64	176.133331
382.96	175.133331
386.28	175.333328
389.59	175.066666
392.91	174.666672
396.24	175.600006
399.56	176.666672
402.88	176.733337
406.2	176.733337
409.53	177
412.85	178.46666
416.18	177.066666
419.5	179.46666
422.83	177.600006
426.16	178.866669
429.48	179
432.81	184.399994
436.14	186.666672
439.47	185.199997
442.8	180.733337
446.13	182.266663
449.46	182.133331
452.79	181.46666
456.12	182.133331
459.46	181.333328
462.79	182.53334
466.12	182.399994
469.46	180.800003
472.79	182.399994
476.13	181
479.46	184.333328
482.8	181.933334
486.13	186.866669
489.47	188.666672
492.8	188.266663
496.14	184
499.48	182.600006
502.82	179.866669
506.15	181.399994
509.49	181.866669
512.83	182.266663
516.17	180.333328
519.51	181.600006
522.85	181.333328
526.19	182.800003
529.53	185.399994
532.87	185.066666
536.21	191.866669
539.55	207.333328
542.89	223.46666
546.23	224.066666
549.57	208.666672
552.91	195.733337
556.25	187.133331
559.6	184.133331
562.94	182.933334
566.28	183.800003
569.62	183.066666
572.96	184.133331
576.3	185
579.65	190.53334
582.99	191.733337
586.33	193.133331
589.67	191
593.01	188.53334
596.36	185.199997
599.7	184.066666
603.04	183.333328
606.38	191.53334
609.72	201.666672
613.07	202.933334
616.41	196.53334
619.75	190.733337
623.09	186.866669
626.43	184.800003
629.77	182.600006
633.11	183.266663
636.45	180.866669
639.79	181
643.13	178.666672
646.47	179.066666
649.81	179.733337
653.15	180.266663
656.49	179.600006
659.83	177.866669
663.17	178.53334
666.51	177.733337
669.85	176.866669
673.19	179.800003
676.53	177.266663
679.86	178.933334
683.2	180.733337
686.54	177.133331
689.87	177.800003
693.21	179.46666
696.55	178.800003
699.88	180.733337
703.22	178.866669
706.55	180.866669
709.88	180.199997
713.22	178.866669
716.55	177.600006
719.88	180.399994
723.22	177.266663
726.55	177.666672
729.88	178.266663
733.21	177.866669
736.54	178.133331
739.87	177.333328
743.2	178.266663
746.53	177.800003
749.86	178.800003
753.18	177.133331
756.51	178.199997
759.84	178.266663
763.16	177.333328
766.49	178.666672
769.81	177.133331
773.13	180.266663
776.46	179.399994
779.78	178.800003
783.1	177.333328
786.42	178.266663
789.74	180.066666
793.06	178.199997
796.38	177.199997
799.7	178.53334
803.01	177.46666
806.33	178.53334
809.64	178.600006
812.96	179.46666
816.27	177.333328
819.58	179.399994
822.9	180.199997
826.21	179.399994
829.52	179.866669
832.83	177.800003
836.14	179.333328
839.44	180.53334
842.75	179.53334
846.05	179
849.36	178.733337
852.66	178.866669
855.97	178.399994
859.27	180.066666
862.57	180.53334
865.87	177.733337
869.17	177
872.46	178.866669
875.76	177.733337
879.06	180.399994
882.35	178.066666
885.64	179.666672
888.94	177.333328
892.23	177.933334
895.52	179.133331
898.81	178.46666
902.09	177.333328
905.38	178.199997
908.67	178.866669
911.95	178.066666
915.23	178.399994
918.52	179.333328
921.8	178.666672
925.08	178.53334
928.35	178.399994
931.63	178.866669
934.91	179
938.18	177.600006
941.45	178.866669
944.72	179.266663
947.99	177.600006
951.26	180
954.53	178.666672
957.8	178.133331
961.06	179.733337
964.33	179.266663
967.59	179.733337
970.85	178.266663
974.11	177.066666
977.37	179.133331
980.62	177.199997
983.88	179.933334
987.13	178
990.38	177.933334
993.63	179.133331
996.88	178.133331
1000.13	177.399994
1003.38	178.733337
1006.62	178.600006
1009.86	177.733337
1013.1	179.133331
1016.34	177.666672
1019.58	179.800003
1022.82	178.133331
1026.05	175.933334
1029.29	177.199997
1032.52	179.666672
1035.75	178.666672
1038.98	177.800003
1042.2	177.53334
1045.43	177.333328
1048.65	176.666672
1051.87	177.800003
1055.09	177.266663
1058.31	178.266663
1061.53	177.53334
1064.74	176.933334
1067.95	178.199997
1071.16	177.199997
1074.37	176.600006
1077.58	178
1080.79	176.666672
1083.99	176.866669
1087.19	177.066666
1090.39	176.733337
1093.59	177.600006
1096.78	177.266663
1099.98	177
1103.17	177.800003
1106.36	175.933334
1109.55	175.46666
1112.74	174.733337
1115.92	177.333328
1119.1	175.53334
1122.28	176.866669
1125.46	175.933334
1128.64	173.933334
1131.81	174.399994
1134.98	171.46666
1138.16	172
1141.32	172.46666
1144.49	172.266663
CHECKSUM û