[HEADER]
Format	J&M ASCII Table
Comment	MF.C11.01_HPX1_dye_24mm
Date	18/02/2022 14:21:53
Order	XYY
TechType	UV
NumPoints	256
FirstX	303.56
LastX	1144.49
XType	nm
YType	Count
ZType	Idx
NumSubFile	1
Matrix	Z vs X
[LOGIN]
Name=JM
[INSTRUMENT]
Name=TIDAS S 400 VIS/NI
Detector=MMS - ASPEN 97,5 kHz
Diodearray=256 Pixel
Serial#=39059
Calibrated=2016-03-14
Range=303.56-1144.49 [nm] (F0)

SWVersion=v3.22.6 (build 0)
[CONFIG]
ChannelName=Dark
ChannelType=RawData
[PARAMETER]
It=155.00
Aver=15
Norm=0
Range=303.6-1144.5 nm
Scan=Single
[TRIGGER]
Sweep=0
Scan=0
[DIO]
DigOut=0x0000
DigIn=0x0000
[DATA]
	0
303.56	176.133331
306.86	170.866669
310.16	170.066666
313.46	171.666672
316.76	173.933334
320.06	172
323.36	172.733337
326.66	175.800003
329.97	172.266663
333.27	174.866669
336.58	174.800003
339.89	175.199997
343.19	174.46666
346.5	176.399994
349.81	176.066666
353.12	176.066666
356.43	175.666672
359.75	177.800003
363.06	176.46666
366.37	176.600006
369.69	175.800003
373	175.800003
376.32	176.266663
379.64	177.199997
382.96	176.866669
386.28	177.133331
389.59	176.53334
392.91	175.53334
396.24	177.733337
399.56	178.199997
402.88	177.266663
406.2	177.53334
409.53	177.733337
412.85	179.333328
416.18	178.733337
419.5	181.066666
422.83	179.266663
426.16	181.399994
429.48	183.600006
432.81	189.133331
436.14	189.933334
439.47	188.53334
442.8	184.866669
446.13	186.600006
449.46	187.600006
452.79	188.199997
456.12	185.800003
459.46	186.933334
462.79	188.066666
466.12	187.800003
469.46	187.066666
472.79	187.46666
476.13	186.53334
479.46	189.266663
482.8	187.133331
486.13	192
489.47	193
492.8	193.866669
496.14	190.866669
499.48	189.53334
502.82	185.266663
506.15	186.46666
509.49	187
512.83	188.266663
516.17	186.199997
519.51	187.600006
522.85	186.733337
526.19	187.46666
529.53	192.46666
532.87	191.666672
536.21	197
539.55	212.133331
542.89	229.866669
546.23	231
549.57	216.866669
552.91	201.866669
556.25	193.133331
559.6	191.666672
562.94	190.199997
566.28	189.866669
569.62	189.133331
572.96	190.199997
576.3	192.46666
579.65	197.066666
582.99	198.800003
586.33	199.199997
589.67	197.066666
593.01	195.53334
596.36	192.399994
599.7	192.333328
603.04	190.133331
606.38	196.733337
609.72	207.666672
613.07	208.600006
616.41	201.733337
619.75	194.733337
623.09	192
626.43	191.066666
629.77	188.600006
633.11	189.333328
636.45	185.133331
639.79	185.133331
643.13	183.600006
646.47	184.133331
649.81	185.666672
653.15	183
656.49	183
659.83	182.46666
663.17	183.066666
666.51	180.666672
669.85	180.266663
673.19	181.53334
676.53	180.333328
679.86	181
683.2	182.53334
686.54	179.600006
689.87	180.46666
693.21	181.600006
696.55	181
699.88	182
703.22	181.066666
706.55	183.066666
709.88	182.333328
713.22	181.066666
716.55	180.53334
719.88	182.600006
723.22	179.600006
726.55	180.733337
729.88	181.866669
733.21	181.399994
736.54	181.600006
739.87	180.399994
743.2	181.600006
746.53	181.933334
749.86	182.600006
753.18	180
756.51	180.066666
759.84	179.800003
763.16	180.46666
766.49	182
769.81	179.266663
773.13	181.600006
776.46	180.266663
779.78	181.666672
783.1	180.866669
786.42	180.199997
789.74	182.066666
793.06	179.53334
796.38	178.666672
799.7	180.53334
803.01	179.333328
806.33	179.800003
809.64	178.199997
812.96	180.46666
816.27	178.46666
819.58	179.800003
822.9	180.066666
826.21	180
829.52	181
832.83	178.933334
836.14	179.800003
839.44	179.266663
842.75	179.066666
846.05	178.333328
849.36	177.666672
852.66	178.46666
855.97	177.199997
859.27	180.333328
862.57	181.199997
865.87	178.266663
869.17	178.266663
872.46	179.199997
875.76	178.333328
879.06	181.266663
882.35	178.866669
885.64	180.199997
888.94	179.199997
892.23	178
895.52	179.666672
898.81	180.199997
902.09	177.46666
905.38	179.666672
908.67	178.933334
911.95	180.46666
915.23	180.333328
918.52	180.199997
921.8	179.800003
925.08	180.333328
928.35	179.46666
931.63	180
934.91	179.733337
938.18	178.666672
941.45	180
944.72	179.46666
947.99	178.600006
951.26	179.066666
954.53	179
957.8	179.800003
961.06	180.600006
964.33	179.46666
967.59	178
970.85	178.399994
974.11	177.733337
977.37	180.399994
980.62	176.666672
983.88	181.266663
987.13	179.199997
990.38	179.199997
993.63	178.666672
996.88	178.53334
1000.13	177.666672
1003.38	177.199997
1006.62	178.199997
1009.86	176.600006
1013.1	178.933334
1016.34	177.600006
1019.58	179.53334
1022.82	178.866669
1026.05	176.399994
1029.29	177.733337
1032.52	179.933334
1035.75	178.46666
1038.98	178.53334
1042.2	177.866669
1045.43	178.53334
1048.65	177.933334
1051.87	179.133331
1055.09	178.46666
1058.31	180
1061.53	177.066666
1064.74	177.266663
1067.95	176.933334
1071.16	177.399994
1074.37	177.800003
1077.58	178.53334
1080.79	178.266663
1083.99	177.666672
1087.19	177.266663
1090.39	178.066666
1093.59	177.866669
1096.78	177.800003
1099.98	177.199997
1103.17	178.933334
1106.36	177.199997
1109.55	177.133331
1112.74	176.933334
1115.92	176.933334
1119.1	175.800003
1122.28	177.800003
1125.46	176.600006
1128.64	173.53334
1131.81	174.199997
1134.98	173.333328
1138.16	174.53334
1141.32	173.600006
1144.49	172.199997
CHECKSUM.S